{
    "particle": "proton",
    "energy": "200 MeV",
    "Zmin": "0.05*m",
    "Zmax": "0.4*m",
    "bins": "300",
    "SetCutValue": "0.01*mm"
}


# Z (mm) 	 Energy Deposition (MeV)
50.5833	0
51.75	0
52.9167	0
54.0833	0
55.25	0
56.4167	0
57.5833	0
58.75	0
59.9167	0
61.0833	0
62.25	0
63.4167	0
64.5833	0
65.75	0
66.9167	0
68.0833	0
69.25	0
70.4167	0
71.5833	0
72.75	0
73.9167	0
75.0833	0
76.25	0
77.4167	0
78.5833	0
79.75	0
80.9167	0
82.0833	0
83.25	0
84.4167	0
85.5833	0
86.75	0
87.9167	0
89.0833	0
90.25	0
91.4167	0
92.5833	0
93.75	0
94.9167	0
96.0833	0
97.25	0
98.4167	0
99.5833	1988.67
100.75	3680.27
101.917	3672.07
103.083	3759.9
104.25	3697.9
105.417	3828.75
106.583	3827.56
107.75	3914.16
108.917	3816.04
110.083	3891.87
111.25	3913.71
112.417	3947.58
113.583	3938.61
114.75	3950.75
115.917	3959.1
117.083	4023.92
118.25	3970.5
119.417	4045.91
120.583	4052.34
121.75	4065.11
122.917	4126.95
124.083	4116.77
125.25	4205.84
126.417	4156.2
127.583	4113.76
128.75	4187.21
129.917	4117.29
131.083	4209.81
132.25	4243.5
133.417	4191.22
134.583	4062.9
135.75	4240.06
136.917	4211.4
138.083	4182.33
139.25	4267.75
140.417	4187.58
141.583	4244.91
142.75	4366.69
143.917	4297.37
145.083	4350.9
146.25	4330.86
147.417	4440.91
148.583	4471.04
149.75	4402.78
150.917	4329.75
152.083	4401.58
153.25	4382.33
154.417	4350.19
155.583	4442.13
156.75	4459
157.917	4482.86
159.083	4407.5
160.25	4494.64
161.417	4432.94
162.583	4552.14
163.75	4634.2
164.917	4531.03
166.083	4577.74
167.25	4610.14
168.417	4592.69
169.583	4648.36
170.75	4706.26
171.917	4636.92
173.083	4578.07
174.25	4689.79
175.417	4682.35
176.583	4708.12
177.75	4721.89
178.917	4659.84
180.083	4734.89
181.25	4683.8
182.417	4627.13
183.583	4678.61
184.75	4684.5
185.917	4692.77
187.083	4756.2
188.25	4751.45
189.417	4849.7
190.583	4966.28
191.75	4898.97
192.917	4837.32
194.083	4856.97
195.25	4821.32
196.417	4912.09
197.583	4859.07
198.75	4903.64
199.917	4801.78
201.083	4899.94
202.25	4956.43
203.417	4928.15
204.583	4837.53
205.75	4947.08
206.917	4980.96
208.083	4848.43
209.25	4876.29
210.417	4960.95
211.583	4900.24
212.75	4964.39
213.917	4962.58
215.083	4915.33
216.25	4918.97
217.417	4986.96
218.583	5025.97
219.75	5061.81
220.917	5129.56
222.083	5051.21
223.25	5079.14
224.417	5138.6
225.583	5097.85
226.75	5281.49
227.917	5239.9
229.083	5189.14
230.25	5224.13
231.417	5194.17
232.583	5130.03
233.75	5230.16
234.917	5240.58
236.083	5183.85
237.25	5197.87
238.417	5212.85
239.583	5190.88
240.75	5261.18
241.917	5319.37
243.083	5268.59
244.25	5216.98
245.417	5372.86
246.583	5341.45
247.75	5342.77
248.917	5386.97
250.083	5414.53
251.25	5499.68
252.417	5528.65
253.583	5424.44
254.75	5380.77
255.917	5435.7
257.083	5526.79
258.25	5458.4
259.417	5414.97
260.583	5498.66
261.75	5629.6
262.917	5549.9
264.083	5591.45
265.25	5589.19
266.417	5652.84
267.583	5728.12
268.75	5677.52
269.917	5679.69
271.083	5708.68
272.25	5689.95
273.417	5650.47
274.583	5757.97
275.75	5757.6
276.917	5754.26
278.083	5750.53
279.25	5817.65
280.417	5842.92
281.583	5934.48
282.75	5915.95
283.917	5931.04
285.083	5995.83
286.25	6065.14
287.417	6006.62
288.583	6077.89
289.75	6109.54
290.917	6207.35
292.083	6173.83
293.25	6271.8
294.417	6277.98
295.583	6250.6
296.75	6280.14
297.917	6382.31
299.083	6393.54
300.25	6280.08
301.417	6467.77
302.583	6521.1
303.75	6592.35
304.917	6566.5
306.083	6569.54
307.25	6582.21
308.417	6700.02
309.583	6675.78
310.75	6719.09
311.917	6792.03
313.083	6898.25
314.25	6927.85
315.417	7054.04
316.583	7113.1
317.75	7145.07
318.917	7235.09
320.083	7297.69
321.25	7388.83
322.417	7464.97
323.583	7478.6
324.75	7650.65
325.917	7684.32
327.083	7783.24
328.25	7813.66
329.417	8069.69
330.583	8118.64
331.75	8288.35
332.917	8284.24
334.083	8408.26
335.25	8549.04
336.417	8752.28
337.583	8976.44
338.75	9217.58
339.917	9283.33
341.083	9522.33
342.25	9717.01
343.417	10045
344.583	10238.1
345.75	10704.2
346.917	11004.7
348.083	11529.2
349.25	12141.9
350.417	12736.4
351.583	13552.9
352.75	14577.3
353.917	15962.1
355.083	17468.5
356.25	18858.4
357.417	19881.1
358.583	20056.2
359.75	18474.4
360.917	15350.3
362.083	11564.3
363.25	7012.56
364.417	3885.14
365.583	1817.5
366.75	661.969
367.917	186.568
369.083	130.602
370.25	34.5842
371.417	47.8068
372.583	28.7109
373.75	10.0591
374.917	6.73314
376.083	18.8519
377.25	30.574
378.417	5.23383
379.583	18.2097
380.75	15.6799
381.917	15.5855
383.083	29.18
384.25	39.0088
385.417	50.0986
386.583	23.8806
387.75	26.8874
388.917	22.4807
390.083	12.9672
391.25	18.3458
392.417	11.6233
393.583	23.4968
394.75	24.666
395.917	18.7463
397.083	19.1908
398.25	17.1281
399.417	36.3285
