{
	"particle": "proton",
	"energy": "20 MeV",
	"Zmin": "0.099*m",
	"Zmax": "0.105*m",
	"bins": "1000",
	"SetCutValue": "0.001*mm"
}

# Z (mm) 	 Energy Deposition (MeV)
99.003	0
99.009	0
99.015	0
99.021	0
99.027	0
99.033	0
99.039	0
99.045	0
99.051	0
99.057	0
99.063	0
99.069	0
99.075	0
99.081	0
99.087	0
99.093	0
99.099	0
99.105	0
99.111	0
99.117	0
99.123	0
99.129	0
99.135	0
99.141	0
99.147	0
99.153	0
99.159	0
99.165	0
99.171	0
99.177	0
99.183	0
99.189	0
99.195	0
99.201	0
99.207	0
99.213	0
99.219	0
99.225	0
99.231	0
99.237	0
99.243	0
99.249	0
99.255	0
99.261	0
99.267	0
99.273	0
99.279	0
99.285	0
99.291	0
99.297	0
99.303	0
99.309	0
99.315	0
99.321	0
99.327	0
99.333	0
99.339	0
99.345	0
99.351	0
99.357	0
99.363	0
99.369	0
99.375	0
99.381	0
99.387	0
99.393	0
99.399	0
99.405	0
99.411	0
99.417	0
99.423	0
99.429	0
99.435	0
99.441	0
99.447	0
99.453	0
99.459	0
99.465	0
99.471	0
99.477	0
99.483	0
99.489	0
99.495	0
99.501	0
99.507	0
99.513	0
99.519	0
99.525	0
99.531	0
99.537	0
99.543	0
99.549	0
99.555	0
99.561	0
99.567	0
99.573	0
99.579	0
99.585	0
99.591	0
99.597	0
99.603	0
99.609	0
99.615	0
99.621	0
99.627	0
99.633	0
99.639	0
99.645	0
99.651	0
99.657	0
99.663	0
99.669	0
99.675	0
99.681	0
99.687	0
99.693	0
99.699	0
99.705	0
99.711	0
99.717	0
99.723	0
99.729	0
99.735	0
99.741	0
99.747	0
99.753	0
99.759	0
99.765	0
99.771	0
99.777	0
99.783	0
99.789	0
99.795	0
99.801	0
99.807	0
99.813	0
99.819	0
99.825	0
99.831	0
99.837	0
99.843	0
99.849	0
99.855	0
99.861	0
99.867	0
99.873	0
99.879	0
99.885	0
99.891	0
99.897	0
99.903	0
99.909	0
99.915	0
99.921	0
99.927	0
99.933	0
99.939	0
99.945	0
99.951	0
99.957	0
99.963	0
99.969	0
99.975	0
99.981	0
99.987	0
99.993	0
99.999	18007
100.005	18490.4
100.011	18185.4
100.017	18153.8
100.023	18356.3
100.029	18265.2
100.035	18364.3
100.041	18301.4
100.047	18246.3
100.053	18557.9
100.059	18502
100.065	18003.8
100.071	18513.1
100.077	18462.2
100.083	18431.5
100.089	18442.6
100.095	18601.2
100.101	18591.8
100.107	18590.9
100.113	18381.4
100.119	18288.5
100.125	18807.2
100.131	18458.7
100.137	18547.8
100.143	18703.3
100.149	18699
100.155	18358.4
100.161	18384.4
100.167	18912.3
100.173	19125.8
100.179	18242.7
100.185	18720.7
100.191	18763.7
100.197	18529.5
100.203	18713.4
100.209	18768.7
100.215	18559.9
100.221	19148.8
100.227	18681.6
100.233	18873.3
100.239	18919.2
100.245	19007.3
100.251	18803.6
100.257	19019.8
100.263	18753.7
100.269	18938.1
100.275	18754.7
100.281	18831.1
100.287	18930.6
100.293	19045.9
100.299	18711.5
100.305	19088.1
100.311	18948.1
100.317	19324.3
100.323	18983.9
100.329	18845.1
100.335	19280.6
100.341	18989.8
100.347	19378.5
100.353	18818.7
100.359	19098.9
100.365	18833.9
100.371	19553.7
100.377	19958.6
100.383	19370.6
100.389	19836.9
100.395	19260
100.401	19179.5
100.407	19347.9
100.413	19150.8
100.419	18972.4
100.425	19503.1
100.431	19296.1
100.437	19144.8
100.443	19805.5
100.449	19065.8
100.455	19343.4
100.461	19161.8
100.467	19392.3
100.473	19450.1
100.479	19197.4
100.485	19404
100.491	19536.7
100.497	19662.6
100.503	19258.5
100.509	19555.6
100.515	19510
100.521	19554.4
100.527	19434.6
100.533	19821.5
100.539	19516.7
100.545	19497.2
100.551	19297.4
100.557	19580.2
100.563	19564.3
100.569	19694
100.575	19793.1
100.581	19656.8
100.587	19513.3
100.593	19926.1
100.599	19565.8
100.605	19727.8
100.611	19500
100.617	19977.3
100.623	19974.5
100.629	19916.1
100.635	20028.7
100.641	19744.4
100.647	20238.2
100.653	19751.6
100.659	19896.8
100.665	19928.6
100.671	19937.9
100.677	19855.3
100.683	19738.8
100.689	20288.9
100.695	20024.2
100.701	20106.3
100.707	19890.6
100.713	19847.8
100.719	20012.4
100.725	20074.4
100.731	20105.9
100.737	20338.5
100.743	19972.7
100.749	20320.6
100.755	20212.7
100.761	20236.2
100.767	20136.5
100.773	20236.5
100.779	20152.1
100.785	20226.7
100.791	20431.2
100.797	20171.2
100.803	19963.8
100.809	20366.4
100.815	20301.2
100.821	20049.2
100.827	20909.5
100.833	20407.4
100.839	20517.1
100.845	20500.4
100.851	20093.5
100.857	20480.3
100.863	20339.8
100.869	20989.4
100.875	21107.2
100.881	20448.5
100.887	20454.3
100.893	20453.7
100.899	20623.9
100.905	20302.8
100.911	20116
100.917	20694.5
100.923	20611.5
100.929	20173.2
100.935	20825.4
100.941	20761.4
100.947	20455
100.953	20720.3
100.959	20522.9
100.965	20800.2
100.971	20951.7
100.977	20609.6
100.983	20628.5
100.989	20717.6
100.995	20779.2
101.001	20704.4
101.007	20740.6
101.013	20631
101.019	20768
101.025	21082.8
101.031	20466.8
101.037	20801.6
101.043	20966
101.049	20796.3
101.055	21080.4
101.061	20646.7
101.067	20990
101.073	20908.4
101.079	21161.8
101.085	21110.1
101.091	20772.7
101.097	21320.9
101.103	20786.4
101.109	21159
101.115	21658.5
101.121	20876.4
101.127	21137.5
101.133	21318.6
101.139	21191
101.145	20994.6
101.151	21153.3
101.157	21171.7
101.163	21428.8
101.169	21508.5
101.175	21313.9
101.181	21268
101.187	21188.3
101.193	21802.5
101.199	21567.5
101.205	21143.3
101.211	21498.4
101.217	21706.1
101.223	21307.7
101.229	21560
101.235	21410.6
101.241	21397.7
101.247	21846
101.253	21426
101.259	21359
101.265	21446.7
101.271	22054.4
101.277	21478.7
101.283	22125.9
101.289	21791.7
101.295	22264.4
101.301	21735
101.307	21845.2
101.313	21721.8
101.319	21769.5
101.325	22128.6
101.331	22012.3
101.337	21931.9
101.343	22023.2
101.349	21523.4
101.355	22263.7
101.361	21937.8
101.367	22076.8
101.373	22295.9
101.379	22089.8
101.385	22173.7
101.391	22149.3
101.397	22079.6
101.403	22389.1
101.409	22124.3
101.415	22228.8
101.421	22222.6
101.427	22083.3
101.433	22653.9
101.439	22479.6
101.445	22232.1
101.451	22200.9
101.457	22500
101.463	22354.1
101.469	22150.3
101.475	22263.3
101.481	22531.1
101.487	22543.9
101.493	22563.3
101.499	22467.1
101.505	22364.7
101.511	22354.7
101.517	22568.1
101.523	22454.6
101.529	22885.9
101.535	22692.7
101.541	22559.1
101.547	22600.2
101.553	22930.3
101.559	23027.4
101.565	22600.4
101.571	22661.8
101.577	23016.2
101.583	22759.5
101.589	22945.9
101.595	22719.8
101.601	22848.4
101.607	22889.6
101.613	22863.9
101.619	22813
101.625	22780.6
101.631	23014.6
101.637	23014.6
101.643	23089.2
101.649	23149.2
101.655	23193.2
101.661	22825.7
101.667	23407.2
101.673	23406
101.679	23173.6
101.685	23180.6
101.691	23399.6
101.697	23521.5
101.703	23128.7
101.709	23826.3
101.715	23357.5
101.721	23579.1
101.727	23851
101.733	23299
101.739	23803.5
101.745	23469.3
101.751	23389.9
101.757	23819.9
101.763	23469.7
101.769	23768.9
101.775	23588.3
101.781	23868.9
101.787	23624.5
101.793	23579.1
101.799	23683.5
101.805	23913.5
101.811	23870
101.817	24152.8
101.823	23472.2
101.829	24036.7
101.835	23939.2
101.841	23858.7
101.847	24150.8
101.853	23847
101.859	23808
101.865	23965.7
101.871	23998.6
101.877	24166.2
101.883	24067.5
101.889	24102.9
101.895	24368.4
101.901	24353.2
101.907	24366.8
101.913	24151.4
101.919	24775
101.925	23958.7
101.931	24378.5
101.937	24191.9
101.943	24451.5
101.949	24571.3
101.955	24181.5
101.961	24438.1
101.967	24632.4
101.973	24327.5
101.979	24265.8
101.985	24742.5
101.991	24522.4
101.997	24442.7
102.003	24727.4
102.009	24645.7
102.015	24795.5
102.021	24626.3
102.027	24690.1
102.033	24814.3
102.039	24843.9
102.045	24809.1
102.051	24942.7
102.057	24892.5
102.063	24938.6
102.069	24868.9
102.075	25162.9
102.081	25173.7
102.087	24918.9
102.093	25189.1
102.099	25193.2
102.105	25227.2
102.111	25272
102.117	25396.7
102.123	25492.9
102.129	25566.6
102.135	25499.4
102.141	25489.4
102.147	25755.5
102.153	25321.9
102.159	25921.4
102.165	25498
102.171	26030.4
102.177	25641.6
102.183	25882.3
102.189	25789.2
102.195	26176.8
102.201	25856.3
102.207	25687.4
102.213	26159.9
102.219	25915.6
102.225	26000.7
102.231	26167.3
102.237	26159.6
102.243	26367.1
102.249	26101.7
102.255	26161
102.261	26310.2
102.267	26453
102.273	26040.6
102.279	26197.1
102.285	26803.7
102.291	26329.3
102.297	26428.5
102.303	26876.5
102.309	26744.9
102.315	26600.3
102.321	26167.3
102.327	26685.6
102.333	26584.8
102.339	26725.8
102.345	26958.3
102.351	26740.1
102.357	27020
102.363	26954.7
102.369	26813.1
102.375	26977.1
102.381	27008.7
102.387	27081.6
102.393	27003.1
102.399	27155
102.405	26992.5
102.411	27344
102.417	27052.3
102.423	27322.3
102.429	26889
102.435	27156.5
102.441	27449
102.447	27616
102.453	27220.9
102.459	27344
102.465	27568.9
102.471	27522.5
102.477	27791.6
102.483	27529.3
102.489	27559.5
102.495	27742.3
102.501	27686.7
102.507	28061.5
102.513	28054.1
102.519	27611.5
102.525	28076.1
102.531	27865.4
102.537	28049.4
102.543	28088.2
102.549	28094.5
102.555	27932.4
102.561	28170.8
102.567	28049
102.573	28504.3
102.579	28247.3
102.585	28249.5
102.591	28423.8
102.597	28524.3
102.603	28420.8
102.609	28616.7
102.615	28734.6
102.621	28547.4
102.627	28711.7
102.633	28871.7
102.639	28582.3
102.645	28685.6
102.651	28760.8
102.657	28674.9
102.663	29260.3
102.669	29084.1
102.675	29026.9
102.681	28944.5
102.687	29311.1
102.693	29378.1
102.699	29460.5
102.705	29148.8
102.711	29308.3
102.717	29375.2
102.723	29622.5
102.729	29638.4
102.735	29335.2
102.741	29597.8
102.747	29633.1
102.753	29901.1
102.759	29808
102.765	29762.2
102.771	30239.5
102.777	29747.1
102.783	30316.8
102.789	30109.6
102.795	29936.8
102.801	30484
102.807	30342.2
102.813	30515.9
102.819	30391.8
102.825	30711.7
102.831	30604.1
102.837	30769.3
102.843	31028
102.849	30533.2
102.855	30563.5
102.861	30731.9
102.867	31158.5
102.873	30863.3
102.879	30865.1
102.885	31089
102.891	31335.5
102.897	30995.3
102.903	31391.7
102.909	31453.5
102.915	31309.1
102.921	31653.2
102.927	31551.1
102.933	31603.5
102.939	31885.4
102.945	31673.8
102.951	31811.6
102.957	31976.9
102.963	31609.5
102.969	32388
102.975	32180
102.981	32170.6
102.987	32457.7
102.993	32262.4
102.999	32985.4
103.005	32542
103.011	32704.3
103.017	33078
103.023	33221.8
103.029	32861.3
103.035	33008.2
103.041	32986.1
103.047	32882.3
103.053	33547.7
103.059	33106.2
103.065	33498.3
103.071	33341.8
103.077	33704.5
103.083	33281.5
103.089	33840.7
103.095	33865.9
103.101	33533.6
103.107	33715.8
103.113	34089.1
103.119	33924.2
103.125	33983.6
103.131	34183.4
103.137	34364.5
103.143	34349.8
103.149	34453.2
103.155	34846.8
103.161	34788.4
103.167	34794.6
103.173	34959.8
103.179	35255.9
103.185	34559.3
103.191	35290.4
103.197	35218.6
103.203	35559.7
103.209	35149.7
103.215	35748.4
103.221	35634.3
103.227	35565.5
103.233	35298.9
103.239	36190.6
103.245	36045.6
103.251	35913.3
103.257	35999.7
103.263	36339.7
103.269	36427.6
103.275	36160.7
103.281	36612.2
103.287	36914.2
103.293	36543.6
103.299	36975.6
103.305	36706.1
103.311	37088.6
103.317	37076
103.323	37455
103.329	37314.8
103.335	37700
103.341	37471.7
103.347	37857.2
103.353	37640
103.359	37953.6
103.365	37967.2
103.371	38425.2
103.377	38675.2
103.383	38154.4
103.389	38707
103.395	38970.3
103.401	38802.2
103.407	39132.8
103.413	38985.3
103.419	39554.1
103.425	39261.9
103.431	39775.5
103.437	39656.7
103.443	39900.8
103.449	39877.9
103.455	40316.8
103.461	40050.8
103.467	40194.3
103.473	40590
103.479	40696.8
103.485	40847.8
103.491	41036
103.497	40826.9
103.503	41216.3
103.509	41322.1
103.515	41278.6
103.521	41674.7
103.527	41959.9
103.533	41802.4
103.539	42047.4
103.545	42227.9
103.551	42711.7
103.557	42362.6
103.563	42755
103.569	42853.4
103.575	43286.9
103.581	43384.8
103.587	43158.4
103.593	43851
103.599	43709.6
103.605	43984.4
103.611	44048
103.617	44616.9
103.623	44640.7
103.629	44783.4
103.635	44970.5
103.641	45373.7
103.647	45284.1
103.653	45925
103.659	45645.7
103.665	46214.2
103.671	46632.6
103.677	46757.3
103.683	46808.7
103.689	46991.3
103.695	47816.8
103.701	47485.2
103.707	47647.8
103.713	48266.4
103.719	48729.1
103.725	48801.2
103.731	49288.9
103.737	49254.1
103.743	49473.2
103.749	49441
103.755	49795.7
103.761	50324.3
103.767	50587.9
103.773	50656.6
103.779	50901.6
103.785	51170.6
103.791	51741.8
103.797	51871.6
103.803	52010.7
103.809	52435.4
103.815	52812.7
103.821	52831
103.827	53427
103.833	53734.9
103.839	54028.7
103.845	54666.2
103.851	54592
103.857	55258.7
103.863	55701.4
103.869	56055.4
103.875	56418.9
103.881	56742.5
103.887	57486.1
103.893	57660.7
103.899	58316
103.905	58705.5
103.911	58877.7
103.917	59855.9
103.923	60188.8
103.929	60373.2
103.935	61369.3
103.941	61672.8
103.947	62179.7
103.953	62689.5
103.959	63295.4
103.965	64028.4
103.971	64615
103.977	65050.2
103.983	65984.2
103.989	66546.9
103.995	67372.8
104.001	67739.1
104.007	68862.9
104.013	69590.9
104.019	70493.4
104.025	71031.5
104.031	72245
104.037	73337.2
104.043	74046.2
104.049	75305.1
104.055	76385.2
104.061	77314.4
104.067	79132.9
104.073	80411.7
104.079	81380.6
104.085	83008.9
104.091	84595.9
104.097	85507.4
104.103	88263.4
104.109	90640.7
104.115	91876.7
104.121	95053.1
104.127	96902.7
104.133	98821.2
104.139	102316
104.145	104585
104.151	107457
104.157	109906
104.163	114113
104.169	116575
104.175	121966
104.181	123944
104.187	127378
104.193	130049
104.199	132958
104.205	136348
104.211	137895
104.217	139396
104.223	142070
104.229	143172
104.235	139569
104.241	140643
104.247	138468
104.253	135730
104.259	130220
104.265	129018
104.271	122563
104.277	120118
104.283	111343
104.289	102649
104.295	94524.5
104.301	90033.2
104.307	81703.1
104.313	75287.9
104.319	68286.1
104.325	56592.6
104.331	50964.6
104.337	43813.2
104.343	36512.6
104.349	32064.5
104.355	26600.6
104.361	21866.2
104.367	16785.2
104.373	15022.2
104.379	10648.4
104.385	8891.77
104.391	5622.12
104.397	4491.71
104.403	3772.68
104.409	2346.31
104.415	2495.6
104.421	2148.77
104.427	1046.8
104.433	524.872
104.439	510.917
104.445	640.906
104.451	550.351
104.457	80.7546
104.463	165.331
104.469	115.768
104.475	34.9607
104.481	85.3104
104.487	0
104.493	0
104.499	0
104.505	0
104.511	0
104.517	0
104.523	0
104.529	0
104.535	0
104.541	0
104.547	0
104.553	0
104.559	0
104.565	0
104.571	0
104.577	0
104.583	0
104.589	0
104.595	0
104.601	0
104.607	0
104.613	0
104.619	0
104.625	0
104.631	0
104.637	0
104.643	0
104.649	0
104.655	0
104.661	0
104.667	0
104.673	0
104.679	0
104.685	0
104.691	0
104.697	0
104.703	0
104.709	0
104.715	0
104.721	0
104.727	0
104.733	0
104.739	0
104.745	0
104.751	0
104.757	0
104.763	0
104.769	0
104.775	0
104.781	0
104.787	0
104.793	0
104.799	0
104.805	0
104.811	0
104.817	0
104.823	0
104.829	0
104.835	0
104.841	0
104.847	0
104.853	0
104.859	0
104.865	0
104.871	0
104.877	0
104.883	0
104.889	0
104.895	0
104.901	0
104.907	0
104.913	0
104.919	0
104.925	0
104.931	0
104.937	0
104.943	0
104.949	0
104.955	0
104.961	0
104.967	0
104.973	0
104.979	0
104.985	0
104.991	0
104.997	0
